timestamp,x,y,z,pitch,roll,yaw,acc_x,acc_y,acc_z
0.21750807762145996,0.0,0.0,0.0,0.0,0.0,0.0,0.0,0.0,0.0
0.4200022220611572,-0.01345,0.00368,0.0,0.63,-0.29,162.05,0.09751,0.03368,-1.00082
0.6385190486907959,-0.03152,0.00886,0.0,0.59,-0.28,162.08,0.15481,0.04171,-1.00279
0.8376269340515137,-0.04808,0.0145,0.0,0.55,-0.34,162.04,0.04503,0.02532,-1.00467
1.0377211570739746,-0.06242,0.01858,0.0,0.47,-0.32,162.11,-0.11348,0.01772,-1.00023
1.2378501892089844,-0.07681,0.0229,0.0,0.47,-0.27,162.05,-0.10315,0.02027,-1.00105
1.4382131099700928,-0.09471,0.02918,0.0,0.51,-0.27,162.05,0.04559,0.02575,-0.99774
1.6383471488952637,-0.11535,0.03555,0.0,0.53,-0.29,162.04,0.13848,-0.00334,-1.00908
1.8380820751190186,-0.13467,0.04108,0.0,0.41,-0.33,162.06,-0.00648,0.02273,-0.98792
2.0385799407958984,-0.15126,0.04694,0.0,0.45,-0.32,162.08,-0.13029,0.02738,-1.00062
2.238168239593506,-0.16892,0.05267,0.0,0.51,-0.27,162.03,-0.06526,0.02623,-0.99967
2.4373230934143066,-0.1889,0.05952,0.0,0.56,-0.29,162.03,0.06715,0.02563,-1.00233
2.6381170749664307,-0.2109,0.067,0.0,0.6,-0.25,162.05,0.10941,0.01531,-1.00322
2.838175058364868,-0.23042,0.07332,0.0,0.55,-0.25,162.08,-0.01456,0.02267,-0.98491
3.0381031036376953,-0.25088,0.08017,0.0,0.59,-0.25,162.04,-0.12147,0.01586,-1.00738
3.238142967224121,-0.26723,0.08495,0.0,0.6,-0.25,162.05,-0.13871,0.02996,-0.99692
3.4377589225769043,-0.28445,0.09047,0.0,0.63,-0.25,162.1,0.01776,0.02945,-1.00075
3.6379570960998535,-0.30737,0.09677,0.0,0.67,-0.22,162.04,0.12845,0.02561,-0.99831
3.8381381034851074,-0.32681,0.10098,0.0,0.65,-0.21,162.1,0.01538,0.0326,-1.00401
4.058296203613281,-0.3407,0.10539,0.0,0.61,-0.24,161.95,-0.16538,-0.02612,-0.9996
4.2587080001831055,-0.35662,0.11019,0.0,0.64,-0.21,162.07,-0.07564,0.00502,-1.00069
4.461573123931885,-0.37592,0.11565,0.0,0.67,-0.31,162.11,0.08614,0.0393,-0.99385
4.658910036087036,-0.39395,0.12154,0.0,0.58,-0.25,162.02,0.05028,0.02044,-1.00485
4.858731985092163,-0.4092,0.12686,0.0,0.53,-0.22,162.07,-0.09072,0.03273,-0.99736
5.059458017349243,-0.42302,0.13174,0.0,0.53,-0.25,162.11,-0.11639,0.0279,-1.0081
5.262196063995361,-0.43835,0.1371,0.0,0.53,-0.28,162.06,-0.02039,0.0115,-1.00186
5.479013204574585,-0.45565,0.14362,0.0,0.57,-0.26,162.06,0.08439,0.01626,-1.00545
5.678319215774536,-0.47427,0.15075,0.0,0.55,-0.25,162.07,0.07039,0.01982,-1.00496
5.879077196121216,-0.49051,0.15606,0.0,0.48,-0.27,162.04,-0.01067,-0.00189,-0.99476
6.078384160995483,-0.50529,0.16151,0.0,0.45,-0.25,162.05,-0.08156,0.03578,-0.99821
6.2790610790252686,-0.52054,0.16791,0.0,0.48,-0.26,162.12,-0.05796,0.00776,-0.99509
6.478671073913574,-0.53936,0.17378,0.0,0.48,-0.28,162.06,-0.01338,0.02443,-1.00419
6.69913911819458,-0.54983,0.17667,0.0,0.43,-0.28,162.06,-0.02343,0.01562,-0.99824
6.898844003677368,-0.55276,0.17841,0.0,0.42,-0.28,162.09,-0.02824,0.02007,-1.00314
7.099368095397949,-0.55235,0.17758,0.0,0.43,-0.28,162.1,-0.01168,0.02057,-0.99886
7.298564195632935,-0.55283,0.17806,0.0,0.42,-0.28,162.12,-0.01406,0.01954,-1.00036
7.499197006225586,-0.56554,0.18219,0.0,0.42,-0.28,162.13,-0.01256,0.01899,-1.00174
7.699458122253418,-0.57596,0.18553,0.0,0.35,-0.28,162.13,-0.12096,0.04579,-0.98852
7.898997068405151,-0.59187,0.19082,0.0,0.42,-0.27,162.09,-0.00177,0.00799,-1.00307
8.099584102630615,-0.6092,0.19725,0.0,0.37,-0.28,162.09,0.08567,0.0102,-0.9996
8.299499988555908,-0.62688,0.20268,0.0,0.38,-0.26,162.09,0.04441,0.00676,-1.0072
8.498969078063965,-0.64216,0.20745,0.0,0.33,-0.31,162.06,-0.08052,0.00492,-0.99966
8.698698043823242,-0.65894,0.21241,0.0,0.29,-0.29,162.08,-0.08964,-0.00722,-0.99663
8.899405002593994,-0.67787,0.21875,0.0,0.29,-0.27,162.1,0.03506,0.0151,-0.99309
9.119400024414062,-0.69817,0.22595,0.0,0.31,-0.23,162.09,0.05415,0.01363,-1.00468
9.319077968597412,-0.71811,0.23278,0.0,0.27,-0.27,162.05,-0.03069,0.00726,-0.99812
9.519186019897461,-0.73586,0.23857,0.0,0.21,-0.31,162.1,-0.10977,0.01202,-0.99475
9.719849109649658,-0.75535,0.24484,0.0,0.27,-0.31,162.1,-0.03826,0.02533,-1.00768
9.918676137924194,-0.77922,0.25154,0.0,0.32,-0.3,162.1,0.06251,0.01906,-1.00308
10.12056303024292,-0.8023,0.25835,0.0,0.32,-0.34,162.09,0.07356,0.02207,-1.00882
10.31887412071228,-0.82325,0.26504,0.0,0.22,-0.31,162.06,-0.07203,0.01454,-0.99934
10.518871068954468,-0.84198,0.27132,0.0,0.23,-0.35,162.1,-0.11848,0.01615,-1.01052
10.73883605003357,-0.86161,0.27767,0.0,0.23,-0.35,162.07,-0.05694,0.02485,-1.00514
10.939249038696289,-0.88534,0.28515,0.0,0.23,-0.35,162.12,0.10178,0.02096,-0.99699
11.1600341796875,-0.91164,0.29386,0.0,0.21,-0.32,162.08,0.12753,0.02559,-1.00587
11.358273029327393,-0.93622,0.30179,0.0,0.15,-0.35,162.13,0.04657,0.05621,-1.01075
11.558995008468628,-0.95736,0.30845,0.0,0.05,-0.37,162.11,-0.11985,0.04144,-0.99491
11.75839900970459,-0.98165,0.31578,0.0,0.08,-0.32,162.05,-0.1028,-0.01231,-1.00186
11.958367109298706,-1.00421,0.32283,0.0,0.14,-0.33,162.11,0.04235,0.01243,-0.99328
12.15877890586853,-1.0303,0.33128,0.0,0.11,-0.38,162.08,0.11149,0.01772,-1.00759
12.359086036682129,-1.05684,0.33931,0.0,0.04,-0.39,162.1,0.05095,0.01327,-0.99383
12.559193134307861,-1.08109,0.34644,0.0,-0.02,-0.41,162.07,-0.06255,0.03121,-0.9929
12.758238077163696,-1.10915,0.35618,0.0,0.01,-0.41,162.13,-0.01319,0.05,-0.99346
12.959160089492798,-1.13489,0.36495,0.0,-0.03,-0.45,162.15,-0.02,0.01749,-0.99417
13.178946018218994,-1.15307,0.37062,0.0,-0.02,-0.47,162.21,-0.02532,0.02697,-0.99741
13.37890625,-1.15164,0.37155,0.0,-0.03,-0.46,163.18,-0.01918,0.04154,-1.00734
13.578509092330933,-1.15238,0.37219,0.0,-0.05,-0.45,163.91,-0.01462,0.02444,-0.99978
13.779069900512695,-1.14847,0.36706,0.0,-0.06,-0.45,163.92,-0.01338,0.02777,-0.99634
13.978920936584473,-1.15021,0.37254,0.0,-0.02,-0.49,159.4,0.08007,-0.03859,-1.0032
14.179193258285522,-1.14998,0.37263,0.0,0.38,-0.58,154.32,-0.01779,0.04146,-0.99889
14.379091024398804,-1.15288,0.37052,0.0,0.46,-0.55,148.25,-0.06108,0.0601,-0.99765
14.581146240234375,-1.15444,0.37157,0.0,0.63,-0.59,141.82,0.02114,-0.00599,-1.00185
14.778448104858398,-1.15574,0.37267,0.0,0.77,-0.61,135.83,0.01697,-0.06517,-1.00321
14.986130952835083,-1.15567,0.37469,0.0,0.94,-0.62,129.73,0.01394,-0.03152,-0.99714
15.17945909500122,-1.15363,0.37436,0.0,0.83,-0.6,123.15,-0.00736,-0.02162,-0.99922
15.39920425415039,-1.15602,0.37669,0.0,0.27,-0.69,116.97,0.02238,0.00434,-1.00092
15.600265979766846,-1.15628,0.37793,0.0,-0.04,-0.67,110.99,-0.03724,-0.00661,-0.99474
15.800400972366333,-1.15797,0.37701,0.0,-0.12,-0.62,104.85,-0.04232,0.0113,-1.01696
16.0001699924469,-1.15687,0.37817,0.0,-0.14,-0.65,98.89,0.00245,0.00944,-0.99913
16.19947123527527,-1.15525,0.37803,0.0,-0.11,-0.69,92.76,-0.00917,0.01265,-0.99586
16.399749279022217,-1.15412,0.37793,0.0,-0.15,-0.66,86.22,-0.01145,0.01426,-0.99986
16.619917154312134,-1.15413,0.37834,0.0,-0.18,-0.66,80.13,0.00064,0.03873,-0.99863
16.8203022480011,-1.15183,0.37782,0.0,-0.22,-0.66,74.95,-0.02532,-0.0626,-0.9978
17.019834280014038,-1.15172,0.37801,0.0,-0.23,-0.66,75.03,-0.00849,0.00555,-1.00132
17.219910860061646,-1.15223,0.37768,0.0,-0.24,-0.66,75.03,-0.01211,0.00912,-1.00157
17.419779062271118,-1.15328,0.37827,0.0,-0.25,-0.66,75.03,-0.01501,0.00721,-0.99993
17.620159149169922,-1.15411,0.37886,0.0,-0.25,-0.66,75.03,-0.01593,0.00849,-1.00097
17.81989812850952,-1.1622,0.40025,0.0,-0.24,-0.66,75.01,0.05546,0.05198,-1.00231
18.019981145858765,-1.16249,0.41649,0.0,-0.3,-0.65,74.95,-0.04382,-0.10224,-0.9986
18.240292072296143,-1.16528,0.4326,0.0,-0.26,-0.65,75.18,-0.05328,-0.03243,-1.00446
18.440222024917603,-1.16865,0.45177,0.0,-0.29,-0.7,74.95,-0.00091,0.02419,-0.99798
18.66138005256653,-1.16911,0.46927,0.0,-0.28,-0.75,74.95,0.01458,-0.00665,-1.00051
18.859223127365112,-1.16915,0.48654,0.0,-0.33,-0.73,74.97,-0.02841,-0.01191,-1.00109
19.063536882400513,-1.16758,0.50606,0.0,-0.35,-0.76,75.02,-0.0253,0.00494,-0.99944
19.261343002319336,-1.16366,0.52465,0.0,-0.32,-0.72,74.97,-0.03438,-0.06554,-1.02242
19.461328268051147,-1.15944,0.54362,0.0,-0.31,-0.77,75.02,-0.0429,-0.08046,-1.00381
19.660806894302368,-1.15489,0.56183,0.0,-0.3,-0.71,74.89,-0.05328,-0.00304,-1.00159
19.860154151916504,-1.15146,0.5781,0.0,-0.23,-0.74,74.96,-0.06779,0.02151,-0.9963
20.079865217208862,-1.14633,0.59636,0.0,-0.22,-0.74,75.02,0.00404,0.01867,-0.99632
20.28014588356018,-1.14112,0.61461,0.0,-0.23,-0.72,75.0,0.02056,-0.00972,-1.00124
20.480343103408813,-1.13577,0.63419,0.0,-0.14,-0.68,74.99,0.03352,0.00284,-1.00304
20.680143117904663,-1.13002,0.65139,0.0,-0.14,-0.68,75.02,0.01128,0.00015,-0.9996
20.88078808784485,-1.12584,0.66675,0.0,-0.14,-0.7,74.96,-0.05904,0.00504,-0.9993
21.07930612564087,-1.12168,0.68043,0.0,-0.06,-0.58,74.98,-0.08458,0.00109,-0.99557
21.27973508834839,-1.11703,0.6956,0.0,0.0,-0.67,74.97,0.02691,0.0099,-0.99897
21.499097108840942,-1.11218,0.71191,0.0,0.03,-0.7,75.02,0.05895,-0.02278,-1.00639
21.69994020462036,-1.10815,0.72599,0.0,-0.02,-0.74,74.99,-0.00243,-0.0014,-0.99891
21.89981698989868,-1.10477,0.74066,0.0,-0.06,-0.75,74.92,-0.06393,0.01769,-1.00278
22.100865125656128,-1.10133,0.75226,0.0,-0.05,-0.73,74.99,-0.04932,0.00974,-1.00047
22.299864053726196,-1.09784,0.76546,0.0,-0.04,-0.75,75.05,0.01916,-0.00218,-0.99894
22.49983811378479,-1.09221,0.77813,0.0,-0.05,-0.77,75.01,0.0414,0.00266,-0.99833
22.702176094055176,-1.08785,0.79158,0.0,-0.08,-0.77,74.97,0.02601,-0.00165,-0.99917
22.919930934906006,-1.08409,0.80288,0.0,-0.11,-0.78,75.14,-0.01991,0.04314,-1.0
23.11983585357666,-1.07829,0.81448,0.0,-0.13,-0.78,74.92,-0.00627,0.00992,-0.99673
23.331916093826294,-1.07339,0.827,0.0,-0.14,-0.79,75.01,0.01226,0.03947,-1.00133
23.520576000213623,-1.06633,0.83915,0.0,-0.15,-0.75,75.03,0.00771,0.01828,-1.00109
23.719781160354614,-1.06114,0.85105,0.0,-0.19,-0.75,75.01,-0.02754,0.0425,-1.002
23.91890788078308,-1.0565,0.86168,0.0,-0.17,-0.76,75.0,-0.02382,-0.01105,-1.00152
24.121114253997803,-1.04945,0.87372,0.0,-0.17,-0.78,75.03,0.02305,0.01241,-1.00367
24.320070028305054,-1.04337,0.88528,0.0,-0.2,-0.75,75.0,-0.01695,-0.00399,-1.00406
24.52054500579834,-1.03784,0.89686,0.0,-0.17,-0.8,75.12,-0.02524,0.05626,-1.00174
24.719842195510864,-1.03315,0.90866,0.0,-0.19,-0.82,74.93,-0.00902,0.0237,-0.99925
24.939711093902588,-1.02662,0.91999,0.0,-0.2,-0.81,74.97,-0.00776,-0.01299,-1.00571
25.139699935913086,-1.02523,0.92624,0.0,-0.2,-0.83,75.0,-0.02481,0.00536,-1.00296
25.33961510658264,-1.02553,0.92586,0.0,-0.27,-0.82,75.02,-0.02463,0.00838,-1.0002
25.53970217704773,-1.02546,0.92535,0.0,-0.28,-0.82,75.04,-0.00635,0.00593,-1.00287
25.740123987197876,-1.02538,0.92551,0.0,-0.29,-0.83,75.06,-0.00737,0.00766,-1.00128
25.939544200897217,-1.02553,0.92517,0.0,-0.29,-0.83,75.06,-0.00891,0.00739,-1.00031
26.159173250198364,-1.02353,0.93828,0.0,-0.29,-0.83,75.06,-0.00626,0.01011,-0.98711
26.36121392250061,-1.02136,0.94875,0.0,-0.28,-0.81,74.95,-0.08262,-0.01408,-1.00431
26.565685033798218,-1.01952,0.96262,0.0,-0.27,-0.86,75.09,-0.07062,0.04893,-0.99945
26.763609170913696,-1.01883,0.97632,0.0,-0.23,-0.86,75.12,-0.02159,0.01506,-1.00195
26.961557149887085,-1.01458,0.99348,0.0,-0.24,-0.89,75.03,0.08086,0.0178,-1.00032
27.18095326423645,-1.0106,1.01231,0.0,-0.27,-0.9,75.04,0.02535,0.00909,-1.00152
27.381132125854492,-1.00687,1.0297,0.0,-0.28,-0.85,75.01,-0.03786,0.02331,-0.99943
27.58070397377014,-1.00236,1.04541,0.0,-0.26,-0.89,74.94,-0.06716,-0.04785,-1.00591
27.78058910369873,-0.99811,1.06141,0.0,-0.29,-0.89,75.08,-0.03591,0.01014,-1.00612
27.980692148208618,-0.99254,1.08042,0.0,-0.34,-0.9,75.03,0.04612,0.01892,-0.99701
28.20137310028076,-0.98623,1.10015,0.0,-0.35,-0.88,75.0,0.05507,0.0095,-1.00398
28.401056051254272,-0.98056,1.11804,0.0,-0.44,-0.86,75.03,-0.03536,0.01666,-0.9937
28.601149082183838,-0.97461,1.13493,0.0,-0.53,-0.83,75.03,-0.0927,0.01508,-0.9922
28.800852060317993,-0.96802,1.15597,0.0,-0.5,-0.87,74.99,-0.027,-0.00904,-0.9954
29.011270999908447,-0.96221,1.17747,0.0,-0.49,-0.81,74.99,0.03636,-0.02885,-1.00532
29.221787929534912,-0.95491,1.20202,0.0,-0.51,-0.84,75.0,0.08541,0.01195,-1.00731
29.420723915100098,-0.94893,1.22379,0.0,-0.6,-0.84,75.03,0.04106,-0.00112,-1.00355
29.645413160324097,-0.94249,1.24602,0.0,-0.66,-0.83,74.97,-0.04009,0.01067,-1.00038
29.84105920791626,-0.93669,1.26708,0.0,-0.6,-0.8,75.13,-0.07112,0.03789,-1.00654
30.05798101425171,-0.93008,1.29191,0.0,-0.55,-0.84,75.07,-0.02447,0.00304,-1.0025
30.24129319190979,-0.92327,1.315,0.0,-0.55,-0.83,75.03,0.04143,0.01028,-1.00653
30.44116711616516,-0.91687,1.33793,0.0,-0.55,-0.83,75.05,0.04443,0.03556,-1.0087
30.64177107810974,-0.90928,1.36218,0.0,-0.59,-0.85,75.02,-0.03387,0.00461,-1.00195
30.843546152114868,-0.90326,1.38356,0.0,-0.59,-0.85,74.99,-0.06714,0.01467,-1.00096
31.040297985076904,-0.89639,1.40687,0.0,-0.58,-0.81,75.04,-0.02075,0.01054,-1.00107
31.241589069366455,-0.88893,1.43108,0.0,-0.58,-0.78,75.03,0.05005,0.01515,-1.00473
31.440349102020264,-0.88335,1.45499,0.0,-0.63,-0.88,75.04,0.00232,0.02183,-0.99533
31.661323070526123,-0.87821,1.4731,0.0,-0.64,-0.82,74.95,-0.07596,-0.00171,-0.99934
31.860549211502075,-0.87485,1.4851,0.0,-0.58,-0.84,75.03,-0.02175,-0.00225,-0.99951
32.080904960632324,-0.87233,1.49459,0.0,-0.6,-0.84,75.08,-0.0125,0.01408,-1.001
32.28064513206482,-0.87058,1.50045,0.0,-0.57,-0.85,75.09,-0.01934,0.00758,-1.00128
32.48091506958008,-0.87057,1.50142,0.0,-0.59,-0.86,75.13,-0.0247,0.00771,-1.00317
32.68101501464844,-0.87341,1.50285,0.0,-0.61,-0.85,75.14,-0.01769,0.00862,-1.00172
32.88118100166321,-0.87325,1.50356,0.0,-0.6,-0.83,71.42,0.00089,0.00804,-0.99671
33.08090019226074,-0.87206,1.50371,0.0,-0.63,-0.76,65.9,-0.01387,0.01297,-1.00135
33.28081798553467,-0.87329,1.50396,0.0,-0.68,-0.72,60.1,-0.00183,0.04482,-0.99578
33.481327056884766,-0.87042,1.50281,0.0,-0.7,-0.65,54.06,-0.01241,-0.02753,-1.00397
33.68108105659485,-0.87184,1.5051,0.0,-0.74,-0.55,47.4,-0.00667,0.02929,-0.99232
33.900656938552856,-0.87044,1.50323,0.0,-0.7,-0.51,41.42,-0.00428,-0.00718,-0.99458
34.1006600856781,-0.87168,1.50449,0.0,-0.71,-0.52,35.21,-0.00584,0.01641,-1.00182
34.30116295814514,-0.87086,1.5051,0.0,-0.72,-0.47,29.28,0.0044,-0.01266,-1.00212
34.500789165496826,-0.87035,1.50379,0.0,-0.72,-0.38,23.22,-0.01013,0.01124,-0.99787
34.701048135757446,-0.87716,1.48603,0.0,-0.69,-0.31,17.13,-0.05094,-0.05312,-1.00856
34.900633096694946,-0.87959,1.46044,0.0,-4.18,0.63,12.92,-0.14902,-0.39127,-1.01412
35.10119819641113,-0.87205,1.47179,0.0,-3.34,3.49,4.32,0.00505,-0.10623,-0.97463
35.30083727836609,-0.86741,1.4956,0.0,-1.02,1.1,-3.33,0.05226,0.11915,-0.65857
35.501132011413574,-0.86871,1.51585,0.0,-0.9,3.02,-6.46,-0.07878,0.25298,-1.38627
35.72051000595093,-0.87165,1.50485,0.0,-0.27,-0.2,-9.23,-0.14214,0.16258,-1.41872
35.921159982681274,-0.87093,1.50015,0.0,-0.59,-0.26,-14.84,-0.01581,0.00915,-1.00007
36.120434045791626,-0.86975,1.49817,0.0,-0.6,-0.25,-14.79,0.00183,0.01444,-0.99951
36.32080602645874,-0.86918,1.49631,0.0,-0.6,-0.25,-14.79,-0.00374,0.01369,-1.0018
36.52110695838928,-0.86904,1.49511,0.0,-0.6,-0.25,-14.78,-0.00169,0.0127,-1.00223
36.720609188079834,-0.86016,1.48872,0.0,-0.6,-0.25,-14.79,-0.00452,0.01212,-1.00059
36.92055296897888,-0.84849,1.48059,0.0,-0.64,-0.23,-14.72,-0.10799,0.01309,-0.99637
37.142282009124756,-0.83163,1.47326,0.0,-0.58,-0.21,-14.89,0.05747,-0.0387,-1.00141
37.34082794189453,-0.81256,1.46663,0.0,-0.62,-0.18,-14.84,0.12109,0.00603,-1.00873
37.5411810874939,-0.79785,1.46052,0.0,-0.78,-0.2,-14.82,-0.03201,0.01201,-0.99304
37.74878120422363,-0.77945,1.45506,0.0,-0.82,-0.14,-14.8,-0.09953,0.03974,-0.99873
37.94113111495972,-0.76233,1.4502,0.0,-0.79,-0.17,-14.83,-0.04057,0.01316,-1.00234
38.14206314086914,-0.74193,1.44441,0.0,-0.79,-0.18,-14.82,0.05103,0.00321,-1.00285
38.3408100605011,-0.72131,1.43835,0.0,-0.81,-0.16,-14.82,0.04618,0.01149,-1.00287
38.541240215301514,-0.69996,1.43231,0.0,-0.81,-0.12,-14.8,0.00148,0.02148,-1.00465
38.74097800254822,-0.68046,1.42775,0.0,-0.86,-0.16,-14.79,-0.03429,0.02528,-0.9976
38.94053506851196,-0.66025,1.42225,0.0,-0.84,-0.16,-14.83,-0.0122,0.02461,-1.00218
39.14082098007202,-0.6386,1.41617,0.0,-0.83,-0.07,-14.81,0.0335,0.01202,-0.99536
39.36116099357605,-0.61735,1.40995,0.0,-0.84,-0.06,-14.82,0.02474,0.01491,-1.00289
39.56189012527466,-0.59322,1.40344,0.0,-0.83,0.07,-14.81,0.00618,0.01284,-1.00511
39.7610650062561,-0.57232,1.39922,0.0,-0.81,0.04,-14.87,-0.0213,0.00824,-1.00351
39.9610960483551,-0.55118,1.39521,0.0,-0.89,0.06,-14.8,-0.0137,0.02928,-0.99817
40.182005167007446,-0.52931,1.39155,0.0,-0.89,0.06,-14.76,-0.01235,0.01124,-1.01156
40.38069295883179,-0.5073,1.3876,0.0,-0.96,0.07,-14.74,0.00557,0.01695,-0.99332
40.58076810836792,-0.48423,1.38292,0.0,-0.98,0.1,-14.78,-0.00266,0.04191,-1.00862
40.78022003173828,-0.46211,1.37857,0.0,-1.04,0.09,-14.7,-0.00582,0.04381,-0.99103
40.98225998878479,-0.43721,1.3732,0.0,-1.06,0.04,-14.82,-0.00846,0.01801,-0.99469
41.18298411369324,-0.41305,1.36906,0.0,-1.04,0.07,-14.77,0.05009,0.03307,-0.99646
41.38080906867981,-0.38765,1.36386,0.0,-1.12,0.09,-14.75,0.04043,0.04844,-0.99384
41.580726146698,-0.36168,1.3585,0.0,-1.14,0.11,-14.85,0.00675,0.03613,-0.9949
41.78099989891052,-0.33827,1.35369,0.0,-1.15,0.13,-14.79,-0.00049,0.04805,-0.99682
41.98034405708313,-0.3138,1.34686,0.0,-1.2,0.16,-14.77,-0.02118,0.02024,-0.9873
42.180757999420166,-0.29879,1.34237,0.0,-1.18,0.21,-14.92,-0.02708,-0.0117,-0.99884
42.382166147232056,-0.28729,1.33962,0.0,-1.23,0.32,-14.91,-0.01527,0.0112,-1.00207
42.58081316947937,-0.27894,1.33749,0.0,-1.25,0.29,-14.87,-0.0149,0.01156,-0.99945
42.800235986709595,-0.27745,1.3371,0.0,-1.26,0.29,-14.86,-0.02806,0.0083,-1.0021
43.000673055648804,-0.25484,1.33221,0.0,-1.27,0.31,-14.87,-0.01951,0.01175,-0.99997
43.2015061378479,-0.23726,1.32889,0.0,-1.35,0.34,-14.82,-0.1901,0.02949,-0.99376
43.40082621574402,-0.21527,1.32384,0.0,-1.3,0.33,-14.91,0.04558,0.01381,-0.98929
43.60072207450867,-0.18644,1.31824,0.0,-1.29,0.39,-14.86,0.1422,0.01805,-1.00535
43.80124807357788,-0.15769,1.3123,0.0,-1.34,0.34,-14.98,0.0521,0.02203,-1.00974
44.00070810317993,-0.13205,1.30773,0.0,-1.38,0.38,-14.95,-0.12917,-0.05243,-1.00557
44.22099304199219,-0.10657,1.30264,0.0,-1.29,0.34,-14.83,-0.09705,0.0629,-1.00172
44.421770095825195,-0.07647,1.29536,0.0,-1.29,0.32,-14.89,0.04169,0.01492,-0.99473
44.620935916900635,-0.04205,1.28709,0.0,-1.25,0.4,-14.91,0.08203,-0.01245,-1.01455
44.82028388977051,-0.01149,1.27956,0.0,-1.29,0.42,-14.94,0.0443,0.02778,-0.99346
45.04073405265808,0.01589,1.27364,0.0,-1.25,0.51,-14.85,-0.09482,0.01352,-1.00251
45.240604877471924,0.0438,1.26744,0.0,-1.3,0.57,-14.95,-0.06373,0.02,-0.99662
45.44022297859192,0.07362,1.26072,0.0,-1.26,0.55,-14.95,0.04952,-0.02046,-1.00986
45.64099097251892,0.10378,1.25385,0.0,-1.33,0.6,-14.79,0.05476,0.03717,-1.00245
45.84065794944763,0.13645,1.246,0.0,-1.38,0.59,-14.96,-0.04718,-0.02949,-1.0061
46.04053211212158,0.16428,1.23933,0.0,-1.43,0.59,-14.96,-0.09802,-0.00764,-1.00497
46.24003195762634,0.19243,1.2328,0.0,-1.39,0.61,-14.82,-0.02009,0.02343,-0.9992
46.4402072429657,0.22248,1.22488,0.0,-1.4,0.53,-14.87,0.0382,0.02105,-0.98796
46.64174008369446,0.25325,1.21509,0.0,-1.44,0.59,-14.87,0.09357,0.02342,-1.00477
46.840320110321045,0.27805,1.20685,0.0,-1.5,0.61,-14.9,-0.0396,0.00544,-1.00177
47.0408730506897,0.3006,1.20074,0.0,-1.45,0.66,-14.82,-0.01581,0.00788,-1.00121
47.26854610443115,0.31851,1.19564,0.0,-1.47,0.7,-14.8,-0.01848,0.00365,-1.00194
47.460988998413086,0.33298,1.19277,0.0,-1.54,0.75,-14.8,-0.02302,0.00826,-1.00333
47.66101813316345,0.34101,1.19066,0.0,-1.58,0.81,-14.77,-0.01731,0.00744,-1.0003
47.86124801635742,0.34515,1.19149,0.0,-1.59,0.8,-14.75,-0.01838,0.00543,-1.00159
48.061153173446655,0.34894,1.19126,0.0,-1.51,0.87,-17.19,0.00041,-0.01841,-1.00139
48.26087808609009,0.34893,1.19009,0.0,-1.4,1.05,-22.47,-0.029,0.00696,-0.99761
48.4609899520874,0.35305,1.18908,0.0,-1.23,1.15,-28.43,0.00884,0.02082,-0.9992
48.68062210083008,0.35189,1.18896,0.0,-1.06,1.26,-34.43,-0.01787,0.02446,-0.99776
48.88068604469299,0.35399,1.18546,0.0,-0.86,1.4,-40.54,0.01803,0.02245,-1.0004
49.08093595504761,0.35453,1.18789,0.0,-0.69,1.55,-46.57,-0.0278,0.02221,-1.00664
49.28119707107544,0.35434,1.18422,0.0,-0.48,1.62,-52.64,0.02546,0.0153,-0.99617
49.48079013824463,0.35314,1.18593,0.0,-0.26,1.72,-59.35,-0.0083,0.03291,-0.99486
49.700483083724976,0.35175,1.18396,0.0,-0.03,1.83,-65.54,0.01739,0.01425,-1.00525
49.90103602409363,0.35189,1.18522,0.0,0.19,1.89,-71.67,-0.01891,0.02652,-1.0064
50.100696086883545,0.34938,1.18273,0.0,0.43,1.86,-77.73,0.01082,0.00377,-1.00389
50.3008189201355,0.3499,1.18413,0.0,0.69,1.87,-84.41,-0.01715,0.02763,-1.0079
50.50091600418091,0.34646,1.18323,0.0,0.96,1.86,-90.52,0.00804,-0.01061,-1.00203
50.72105598449707,0.34735,1.18288,0.0,1.13,1.82,-96.59,-0.01544,0.07173,-1.00053
50.920819997787476,0.34487,1.18725,0.0,1.35,1.74,-102.76,-0.0225,-0.09981,-1.02199
51.120474100112915,0.34475,1.18673,0.0,1.34,1.78,-103.07,0.01134,0.03394,-0.99936
51.32051730155945,0.34514,1.18638,0.0,1.31,1.83,-103.12,-0.00672,0.00987,-1.00125
51.54117202758789,0.34533,1.18707,0.0,1.29,1.88,-103.16,-0.00442,0.01107,-0.99947
51.740947008132935,0.34564,1.18903,0.0,1.28,1.9,-103.17,-0.00322,0.01202,-1.00133
51.94081425666809,0.34463,1.18546,0.0,1.28,1.9,-103.17,-0.00129,0.01232,-1.00183
52.140573024749756,0.34275,1.17791,0.0,1.28,1.85,-103.15,-0.04654,0.04419,-0.99787
52.34047794342041,0.34137,1.16843,0.0,1.26,1.8,-103.23,-0.01844,0.03444,-0.99519
52.541115045547485,0.3384,1.15605,0.0,1.32,1.89,-103.14,0.02771,0.02699,-1.00432
52.741044998168945,0.33639,1.14163,0.0,1.29,1.81,-103.21,0.02335,0.01512,-0.99983
52.94042205810547,0.33336,1.12585,0.0,1.29,1.83,-103.18,-0.0023,0.04252,-0.99982
53.16040301322937,0.32989,1.11121,0.0,1.31,1.85,-103.26,-0.04172,0.01839,-1.01436
53.36087107658386,0.3257,1.09422,0.0,1.29,1.73,-103.13,0.00383,0.01777,-0.99383
53.5611891746521,0.32005,1.07501,0.0,1.32,1.87,-103.26,0.02861,-0.02303,-1.0038
53.76097893714905,0.3132,1.0553,0.0,1.34,1.88,-103.23,-0.02881,0.00233,-0.9976
53.968544006347656,0.30881,1.03628,0.0,1.41,1.74,-103.28,-0.00114,0.00819,-0.98783
54.160834074020386,0.30329,1.01794,0.0,1.51,1.83,-103.13,0.02195,0.02365,-0.99969
54.36070919036865,0.29698,1.00076,0.0,1.54,1.83,-103.2,0.00532,-0.01123,-1.00193
54.58256006240845,0.29134,0.98182,0.0,1.57,1.83,-103.2,0.01204,-0.01793,-0.99276
54.78074288368225,0.28638,0.96561,0.0,1.59,1.84,-103.29,-0.0397,0.00516,-1.00016
54.980756998062134,0.28144,0.95002,0.0,1.63,1.83,-103.27,-0.07063,-0.0283,-1.0056
55.18062710762024,0.2758,0.93259,0.0,1.69,1.85,-103.17,0.01589,0.0149,-1.00756
55.380638122558594,0.27058,0.91563,0.0,1.69,1.87,-103.23,0.038,0.02555,-1.00571
55.58063220977783,0.26634,0.89929,0.0,1.67,1.92,-103.13,0.01558,0.02823,-1.00155
55.7807822227478,0.26177,0.88368,0.0,1.69,1.89,-103.24,-0.00619,0.0087,-0.99882
56.0014591217041,0.25813,0.86808,0.0,1.69,1.92,-103.21,-0.02579,0.00445,-1.0013
56.20010709762573,0.25464,0.85063,0.0,1.69,1.88,-103.19,-0.02833,0.00923,-0.99544
56.400652170181274,0.25058,0.83677,0.0,1.66,1.84,-103.25,-0.01446,-0.00342,-1.00549
56.62026119232178,0.24635,0.82112,0.0,1.67,1.85,-103.18,0.05853,0.00773,-1.0039
56.8210711479187,0.24227,0.80341,0.0,1.63,1.8,-103.23,0.07008,0.00307,-1.00681
57.020735025405884,0.23797,0.78678,0.0,1.53,1.85,-103.22,-0.02674,0.00919,-0.99934
57.22201609611511,0.23335,0.76887,0.0,1.56,1.82,-103.22,-0.08999,0.01062,-1.00284
57.42067790031433,0.22966,0.75339,0.0,1.61,1.79,-103.17,-0.02771,0.014,-1.00604
57.62098789215088,0.22468,0.73578,0.0,1.62,1.76,-103.18,0.05729,0.02767,-1.00214
57.82091021537781,0.22093,0.71735,0.0,1.61,1.77,-103.24,0.04119,-0.01198,-1.01191
58.020626068115234,0.21695,0.70014,0.0,1.6,1.74,-103.18,0.01338,0.0391,-0.99802
58.2407500743866,0.21186,0.68115,0.0,1.63,1.78,-103.2,-0.03582,0.01391,-1.00199
58.44107508659363,0.20729,0.66685,0.0,1.66,1.79,-103.22,-0.02364,0.00734,-1.00354
58.640711069107056,0.20314,0.64755,0.0,1.67,1.76,-103.19,0.02896,0.02622,-1.00529
58.840731143951416,0.20089,0.63731,0.0,1.66,1.77,-103.23,-0.02556,0.00418,-1.00302
59.04088020324707,0.19959,0.63311,0.0,1.66,1.78,-103.22,-0.00982,0.01769,-1.00069
59.24033808708191,0.19965,0.63571,0.0,1.66,1.82,-103.24,-0.02423,0.01353,-1.00138
59.44092607498169,0.19951,0.63582,0.0,1.67,1.81,-103.24,0.00494,0.01547,-1.00154
59.64126110076904,0.1994,0.63588,0.0,1.67,1.82,-103.24,0.00557,0.01441,-0.99939
59.86063003540039,0.19285,0.61756,0.0,1.72,1.83,-103.25,0.15679,0.01665,-1.01962
60.060922145843506,0.18742,0.60181,0.0,1.58,1.92,-103.24,-0.02173,-0.00523,-0.99513
60.261261224746704,0.18212,0.5851,0.0,1.56,1.88,-103.26,-0.1369,0.02031,-0.99963
60.460840940475464,0.17898,0.56857,0.0,1.59,1.9,-103.3,-0.06441,0.03211,-0.99769
60.660887002944946,0.17441,0.55033,0.0,1.6,1.92,-103.3,0.01561,0.01514,-1.00319
60.86068296432495,0.17107,0.52887,0.0,1.61,1.95,-103.31,0.10486,0.00833,-1.0081
61.06067514419556,0.16821,0.50673,0.0,1.54,1.93,-103.26,0.05481,0.00409,-1.00773
61.25996708869934,0.16451,0.4859,0.0,1.47,1.91,-103.3,-0.03546,-0.03371,-1.01572
61.460132122039795,0.16226,0.46522,0.0,1.42,1.93,-103.28,-0.06073,0.01103,-0.99728
61.680461168289185,0.1599,0.44264,0.0,1.49,1.91,-103.33,0.02084,-0.01325,-1.00524
61.8808069229126,0.1555,0.41959,0.0,1.48,1.88,-103.39,0.02904,0.0302,-1.00483
62.080207109451294,0.15175,0.39509,0.0,1.42,1.85,-103.22,-0.0508,0.00631,-1.00464
62.280314207077026,0.14898,0.37396,0.0,1.46,1.84,-103.27,-0.06831,0.05395,-0.99761
62.48026204109192,0.1469,0.35333,0.0,1.46,1.84,-103.27,-0.05875,0.03176,-0.99216
62.68130898475647,0.14289,0.33075,0.0,1.55,1.86,-103.24,0.04645,0.00991,-0.99307
62.881277084350586,0.1383,0.30704,0.0,1.55,1.93,-103.29,0.07992,-0.01912,-1.00756
63.10088920593262,0.13385,0.28553,0.0,1.49,1.94,-103.3,-0.01741,0.01584,-1.0038
63.30064105987549,0.13009,0.26662,0.0,1.48,1.98,-103.31,-0.05985,0.01366,-0.99375
63.500093936920166,0.12663,0.24354,0.0,1.52,1.85,-103.36,0.03562,-0.01189,-1.00018
63.7008740901947,0.12197,0.22064,0.0,1.49,1.85,-103.31,0.07689,-0.01037,-1.00691
63.90129208564758,0.11744,0.19773,0.0,1.45,1.84,-103.28,0.0723,0.00927,-1.00632
64.12042117118835,0.11121,0.17365,0.0,1.37,1.82,-103.29,-0.00814,0.0173,-0.99475
64.32106304168701,0.10573,0.15275,0.0,1.34,1.79,-103.3,-0.10186,0.00781,-1.0044
64.52228903770447,0.09991,0.13389,0.0,1.31,1.81,-103.29,-0.09923,0.01108,-0.992
64.72095894813538,0.09275,0.11384,0.0,1.37,1.79,-103.27,-0.02158,-0.01146,-1.0158
64.94056010246277,0.08335,0.09203,0.0,1.4,1.78,-103.27,0.08918,0.00422,-1.00901
65.14083099365234,0.08108,0.08018,0.0,1.34,1.76,-103.25,-0.01699,-0.00096,-1.00212
65.34130001068115,0.08075,0.07882,0.0,1.35,1.75,-103.23,-0.02437,0.01346,-1.00164
65.54070806503296,0.08239,0.08295,0.0,1.34,1.75,-103.22,-0.02038,0.01419,-1.00346
65.74053812026978,0.08274,0.08419,0.0,1.33,1.75,-103.24,0.00258,0.01447,-1.00235
