timestamp,x,y,z,pitch,roll,yaw,acc_x,acc_y,acc_z
0.21956896781921387,0.0,0.0,0.0,0.0,0.0,0.0,0.0,0.0,0.0
0.4193379878997803,-0.06766,0.02006,0.0,4.43,-1.42,163.33,0.25087,0.0088,-0.9958
0.619797945022583,-0.12259,0.03588,0.0,4.15,-1.42,163.22,-0.07572,0.01315,-0.98229
0.8191099166870117,-0.17684,0.05334,0.0,4.1,-1.42,163.23,-0.17746,-0.00038,-0.98959
1.0197508335113525,-0.2382,0.07179,0.0,4.24,-1.52,163.23,-0.0017,0.01022,-0.98018
1.2196228504180908,-0.30676,0.09165,0.0,4.32,-1.51,163.28,0.14231,0.06859,-1.00889
1.419438123703003,-0.37558,0.11336,0.0,4.31,-1.38,163.27,0.04484,-0.00052,-0.99914
1.6408398151397705,-0.44916,0.13501,0.0,4.29,-1.41,163.23,-0.11727,0.03038,-0.99139
1.8396689891815186,-0.49119,0.14784,0.0,4.24,-1.48,163.27,-0.23085,-0.01553,-0.98606
2.0393669605255127,-0.52652,0.15724,0.0,4.36,-1.45,163.25,0.04973,-0.00041,-1.00446
2.239280939102173,-0.54368,0.163,0.0,4.21,-1.51,163.0,-0.03166,0.01247,-0.99748
2.439542055130005,-0.55615,0.16592,0.0,4.18,-1.5,163.13,-0.02196,0.01562,-0.99936
2.63995099067688,-0.56405,0.1683,0.0,4.18,-1.52,163.18,-0.01694,0.02898,-0.99949
2.861335039138794,-0.56819,0.17027,0.0,4.19,-1.49,163.17,-0.01997,0.0207,-1.00225
3.059777021408081,-0.56775,0.1699,0.0,4.15,-1.45,163.15,-0.02257,0.01912,-1.00173
3.2615649700164795,-0.56781,0.1699,0.0,4.15,-1.45,163.16,-0.00436,0.01952,-1.00193
3.461329936981201,-0.56779,0.16984,0.0,4.15,-1.45,163.16,-0.00807,0.01904,-1.00042
3.661104917526245,-0.5666,0.1722,0.0,4.15,-1.45,163.16,-0.00734,0.01933,-1.0018
3.8791589736938477,-0.56581,0.17265,0.0,4.19,-1.2,166.8,-0.02178,0.00459,-1.00173
4.079168081283569,-0.56732,0.17216,0.0,4.23,-0.65,172.81,0.0132,0.04709,-1.00316
4.2997918128967285,-0.56846,0.17237,0.0,4.23,-0.24,178.47,-0.01991,0.03645,-1.00103
4.498895168304443,-0.56744,0.17028,0.0,4.15,0.26,-175.13,-0.00091,0.04629,-0.99863
4.700157880783081,-0.56918,0.1715,0.0,4.05,0.69,-169.21,-0.00829,-0.00875,-1.00935
4.899620056152344,-0.5673,0.16935,0.0,3.91,1.08,-163.25,-0.01846,0.02397,-1.00138
5.099822998046875,-0.57059,0.17213,0.0,3.71,1.52,-157.41,0.00698,0.01652,-1.00926
5.299854040145874,-0.56806,0.16894,0.0,3.46,1.89,-151.43,-0.00667,0.06367,-1.00127
5.499671936035156,-0.57053,0.16964,0.0,3.23,2.28,-145.45,0.02047,0.0194,-0.99693
5.7197959423065186,-0.57022,0.17001,0.0,2.94,2.54,-139.69,-0.01293,-0.00113,-0.99675
5.92028284072876,-0.57076,0.16974,0.0,2.62,2.91,-133.14,0.02611,0.01716,-1.00317
6.1195619106292725,-0.57234,0.16971,0.0,2.25,3.16,-127.83,0.00086,-0.00457,-0.99099
6.31960391998291,-0.57117,0.1696,0.0,1.81,3.39,-121.33,-0.00546,0.00736,-0.99795
6.521512985229492,-0.5704,0.16889,0.0,1.41,3.57,-115.5,-0.00449,0.04574,-0.99795
6.719531059265137,-0.56888,0.16974,0.0,1.04,3.71,-110.18,0.00948,0.02,-0.99666
6.919400930404663,-0.569,0.16996,0.0,0.92,3.75,-108.41,0.00863,0.00329,-1.00416
7.119077920913696,-0.56904,0.17026,0.0,0.91,3.76,-108.42,-0.00652,0.01358,-1.00031
7.339802026748657,-0.56871,0.17082,0.0,0.91,3.76,-108.42,0.00133,0.01567,-1.00212
7.539738178253174,-0.56852,0.1713,0.0,0.91,3.76,-108.42,-0.00437,0.0146,-0.99864
7.739462852478027,-0.56832,0.17166,0.0,0.91,3.76,-108.42,-0.00125,0.0144,-0.99931
7.939717769622803,-0.56816,0.17189,0.0,0.91,3.76,-108.42,-0.00165,0.01442,-1.00262
8.139646053314209,-0.56802,0.17178,0.0,0.91,3.76,-108.42,-0.00317,0.01414,-1.00065
8.339494943618774,-0.58346,0.11358,0.0,1.01,3.77,-108.45,0.21676,0.00287,-1.01863
8.539736032485962,-0.6008,0.0672,0.0,0.71,3.83,-108.37,-0.20848,-0.02507,-1.0002
8.7398099899292,-0.61909,0.01346,0.0,0.76,3.75,-108.58,-0.06059,0.03647,-1.0002
8.959666967391968,-0.63949,-0.05001,0.0,0.78,3.75,-108.5,0.11988,0.02354,-1.00329
9.160906076431274,-0.66213,-0.1169,0.0,0.71,3.68,-108.47,0.11115,0.02135,-0.99865
9.360852003097534,-0.6869,-0.19005,0.0,0.62,3.67,-108.43,-0.00791,0.00879,-0.96878
9.559168100357056,-0.71006,-0.25682,0.0,0.59,3.73,-108.52,-0.11878,-0.00351,-0.99599
9.760825872421265,-0.72852,-0.3107,0.0,0.62,3.62,-108.49,-0.02668,-0.00159,-1.00695
9.964080810546875,-0.74315,-0.34993,0.0,0.68,3.53,-108.48,0.11641,-0.00709,-1.00707
10.161062955856323,-0.75006,-0.36659,0.0,0.61,3.52,-108.65,-0.03649,0.00877,-0.994
10.360943794250488,-0.75387,-0.38075,0.0,0.58,3.5,-108.59,-0.02836,0.01803,-1.00131
10.579033136367798,-0.75738,-0.39034,0.0,0.54,3.47,-108.52,-0.01827,0.01572,-0.99989
10.779179096221924,-0.75844,-0.39345,0.0,0.54,3.46,-108.51,-0.02194,0.02415,-1.00107
10.979117155075073,-0.7577,-0.39293,0.0,0.54,3.44,-108.51,-0.0202,0.01732,-1.00139
11.179160118103027,-0.75788,-0.3934,0.0,0.53,3.43,-108.51,-0.00682,0.016,-1.00155
11.379096031188965,-0.75808,-0.39364,0.0,0.53,3.44,-108.51,-0.00616,0.0166,-1.00101
11.579127073287964,-0.76036,-0.39246,0.0,0.53,3.43,-108.51,-0.00637,0.01753,-0.99974
11.7795729637146,-0.76077,-0.39125,0.0,0.33,3.47,-105.84,-0.00773,0.05185,-0.99632
11.979199886322021,-0.76128,-0.39363,0.0,0.0,3.5,-100.68,0.00327,0.00307,-1.00228
12.20033311843872,-0.76109,-0.39293,0.0,-0.41,3.55,-95.03,-0.00489,0.00867,-0.99946
12.399199962615967,-0.76069,-0.39402,0.0,-0.87,3.49,-88.65,-0.0053,0.01401,-1.00421
12.599279165267944,-0.76093,-0.39294,0.0,-1.28,3.41,-82.73,-0.01624,0.02475,-0.99631
12.798938035964966,-0.76054,-0.39317,0.0,-1.59,3.28,-77.48,-0.00149,-0.01151,-1.00492
13.019267082214355,-0.76249,-0.39408,0.0,-2.04,3.08,-70.97,-0.0051,0.03218,-1.00815
13.220119953155518,-0.76088,-0.39345,0.0,-2.39,2.87,-65.02,-0.00528,0.02383,-1.00097
13.419571876525879,-0.76225,-0.39513,0.0,-2.76,2.64,-59.19,-0.00887,-0.0403,-0.99777
13.61962080001831,-0.75936,-0.39281,0.0,-3.06,2.39,-53.29,-0.00301,0.0649,-0.9981
13.819716930389404,-0.76162,-0.39552,0.0,-3.34,2.05,-46.73,-0.01569,-0.06942,-1.00214
14.019479036331177,-0.76048,-0.39396,0.0,-3.56,1.64,-40.72,0.00884,0.0353,-1.00022
14.219687938690186,-0.7609,-0.39559,0.0,-3.76,1.32,-34.84,0.01485,-0.00573,-1.00266
14.419429779052734,-0.76014,-0.39491,0.0,-3.9,0.95,-28.91,0.00565,0.0349,-1.00147
14.618991136550903,-0.75828,-0.39348,0.0,-4.05,0.55,-23.17,-0.01769,-0.01045,-1.00134
14.819381952285767,-0.75731,-0.39342,0.0,-4.11,0.29,-19.55,-0.00193,0.05885,-0.99879
15.039384126663208,-0.75751,-0.39365,0.0,-4.11,0.31,-19.57,-0.00459,0.00933,-1.00289
15.239530086517334,-0.75771,-0.39351,0.0,-4.1,0.31,-19.57,-0.00616,0.01235,-1.00068
15.43956208229065,-0.75791,-0.39338,0.0,-4.1,0.31,-19.57,-0.0042,0.01153,-1.00093
15.63952112197876,-0.75807,-0.39321,0.0,-4.1,0.31,-19.57,-0.00472,0.013,-1.00207
15.86115312576294,-0.75825,-0.39306,0.0,-4.1,0.31,-19.57,-0.00575,0.01305,-0.99843
16.059130907058716,-0.75836,-0.39303,0.0,-4.1,0.31,-19.57,-0.00415,0.01317,-1.00021
16.26081681251526,-0.71565,-0.40697,0.0,-4.09,0.32,-19.57,0.09435,0.02111,-0.98822
16.46121907234192,-0.66856,-0.42576,0.0,-4.19,0.38,-19.4,-0.15551,0.00895,-0.99145
16.65915012359619,-0.61101,-0.44666,0.0,-4.1,0.36,-19.69,0.11177,0.02974,-0.9867
16.86122703552246,-0.54754,-0.46825,0.0,-4.14,0.32,-19.72,0.16595,0.03386,-1.00797
17.060797929763794,-0.48462,-0.4903,0.0,-4.28,0.3,-19.6,-0.01169,0.02872,-0.99457
17.26099395751953,-0.42249,-0.51232,0.0,-4.29,0.29,-19.6,-0.11329,0.02551,-0.98897
17.479087114334106,-0.34835,-0.53827,0.0,-4.26,0.28,-19.63,-0.06373,0.0304,-0.99633
17.679413080215454,-0.28599,-0.55934,0.0,-4.23,0.41,-19.58,0.03662,0.03573,-0.99568
17.879332780838013,-0.24195,-0.57372,0.0,-4.19,0.42,-19.64,0.05833,0.02662,-0.9962
18.079596042633057,-0.22234,-0.58048,0.0,-4.25,0.44,-19.5,-0.04589,-0.00099,-1.00225
18.279226779937744,-0.20695,-0.58605,0.0,-4.2,0.39,-19.46,-0.01998,0.01042,-1.00311
18.479038953781128,-0.19769,-0.58997,0.0,-4.19,0.4,-19.46,-0.02284,0.00691,-0.99981
18.67909288406372,-0.19394,-0.59049,0.0,-4.2,0.42,-19.46,-0.02179,0.00856,-1.002
18.87908101081848,-0.19521,-0.58981,0.0,-4.2,0.41,-19.45,-0.01868,0.00984,-0.99981
19.099015951156616,-0.19605,-0.58945,0.0,-4.2,0.41,-19.46,-0.00915,0.00875,-1.00021
19.299572944641113,-0.19583,-0.5893,0.0,-4.2,0.41,-19.45,-0.00244,0.00846,-0.99946
19.519495010375977,-0.19608,-0.58992,0.0,-4.2,0.41,-19.45,-0.00539,0.00965,-1.00023
19.719160079956055,-0.19642,-0.59243,0.0,-4.21,0.28,-17.25,0.00708,0.03298,-0.99627
19.919705152511597,-0.19729,-0.59102,0.0,-4.3,-0.09,-12.2,-0.02531,0.02176,-0.99218
20.119561910629272,-0.19627,-0.59178,0.0,-4.3,-0.51,-6.56,-0.00592,-0.01131,-1.00432
20.319571018218994,-0.19568,-0.59265,0.0,-4.3,-0.94,-0.69,0.00197,-0.00203,-1.00078
20.51985788345337,-0.19599,-0.5916,0.0,-4.23,-1.33,5.15,0.0003,0.00477,-1.00371
20.719421863555908,-0.19632,-0.58986,0.0,-4.14,-1.76,11.13,-0.01528,0.04664,-1.01053
20.919490098953247,-0.19462,-0.59086,0.0,-4.05,-2.12,17.08,0.00506,0.02648,-1.00385
21.11944079399109,-0.19608,-0.59024,0.0,-3.84,-2.55,22.93,-0.00994,0.00752,-0.99309
21.339589834213257,-0.19502,-0.59103,0.0,-3.63,-2.86,28.76,-0.01301,-0.05051,-1.00515
21.53962802886963,-0.19583,-0.59108,0.0,-3.33,-3.28,35.35,-0.01547,0.02684,-0.99744
21.739537000656128,-0.19531,-0.59228,0.0,-3.05,-3.56,41.2,-0.00854,-0.02175,-1.00757
21.93958306312561,-0.19836,-0.59144,0.0,-2.7,-3.87,47.18,-0.02,0.04255,-0.99946
22.139353036880493,-0.1964,-0.59239,0.0,-2.35,-4.06,53.03,-0.01809,-0.0093,-1.00111
22.36087203025818,-0.19618,-0.59132,0.0,-1.93,-4.29,58.86,-0.01071,-0.02226,-1.00189
22.5607271194458,-0.19694,-0.59251,0.0,-1.48,-4.52,65.32,-0.019,-0.01462,-0.9988
22.75914692878723,-0.19764,-0.59224,0.0,-1.22,-4.64,69.18,0.00166,0.06028,-1.00008
22.961126804351807,-0.19745,-0.59231,0.0,-1.23,-4.63,69.15,-0.01368,0.00838,-1.00121
23.161456823349,-0.19691,-0.59207,0.0,-1.24,-4.63,69.16,-0.01344,0.01213,-1.00201
23.360737085342407,-0.1966,-0.59187,0.0,-1.25,-4.64,69.15,-0.01182,0.01261,-1.00134
23.561657190322876,-0.19619,-0.59163,0.0,-1.25,-4.64,69.15,-0.01219,0.01196,-1.00161
23.780086994171143,-0.19582,-0.59156,0.0,-1.25,-4.63,69.15,-0.01412,0.01211,-1.00216
23.979448080062866,-0.19553,-0.59153,0.0,-1.25,-4.63,69.15,-0.01262,0.01105,-1.00158
24.199701070785522,-0.17909,-0.56232,0.0,-1.25,-4.64,69.15,-0.01072,0.01146,-0.99763
24.398453950881958,-0.15438,-0.50371,0.0,-1.25,-4.55,69.59,-0.10479,-0.01872,-0.98201
24.599087953567505,-0.13082,-0.44613,0.0,-1.27,-4.6,68.93,0.12805,0.02514,-0.99265
24.800981998443604,-0.10793,-0.3832,0.0,-1.26,-4.6,68.97,0.1195,0.00189,-1.0095
24.999480962753296,-0.0851,-0.31962,0.0,-1.32,-4.63,69.11,-0.02942,0.01706,-0.98735
25.19957184791565,-0.06233,-0.2565,0.0,-1.26,-4.68,69.16,-0.11312,0.04067,-1.02856
25.39940595626831,-0.03796,-0.19211,0.0,-1.21,-4.67,69.16,-0.01456,0.07061,-1.00237
25.599651098251343,-0.01472,-0.12883,0.0,-1.2,-4.71,69.08,0.06249,0.04123,-0.98842
25.799968004226685,0.0012,-0.08616,0.0,-1.38,-4.71,69.0,-0.03125,-0.0141,-0.9889
25.99955987930298,0.00793,-0.06983,0.0,-1.48,-4.75,69.15,-0.22621,0.02709,-0.99008
26.199633836746216,0.01323,-0.05668,0.0,-1.42,-4.73,69.02,-0.03334,0.00301,-1.00516
26.40065097808838,0.01677,-0.046,0.0,-1.43,-4.66,68.98,-0.02404,0.00866,-1.00176
26.59952473640442,0.01865,-0.04025,0.0,-1.42,-4.67,69.05,-0.0363,0.00656,-0.99987
26.819154977798462,0.01797,-0.04035,0.0,-1.45,-4.69,69.06,-0.03054,0.0126,-0.9997
27.020256996154785,0.01732,-0.04128,0.0,-1.45,-4.68,69.06,-0.01774,0.01294,-1.00091
27.219595909118652,0.01755,-0.04105,0.0,-1.45,-4.68,69.06,-0.0141,0.01469,-0.9999
27.419427156448364,0.01786,-0.04092,0.0,-1.44,-4.68,69.06,-0.00659,0.01185,-1.00055
27.619522094726562,0.02062,-0.04179,0.0,-1.37,-4.67,70.15,-0.00141,0.03452,-1.00804
27.81954002380371,0.02096,-0.04265,0.0,-0.99,-4.83,75.25,-0.03032,0.01939,-0.99892
28.019667863845825,0.02204,-0.04092,0.0,-0.54,-4.9,80.86,0.01243,0.00038,-0.99914
28.219213008880615,0.0197,-0.03969,0.0,-0.06,-4.9,86.59,-0.00658,0.02439,-1.00007
28.41960597038269,0.02018,-0.0403,0.0,0.35,-4.84,92.35,-0.02527,-0.00515,-1.00746
28.6400408744812,0.02013,-0.04061,0.0,0.83,-4.78,98.79,-0.01962,0.00364,-0.99771
28.84058904647827,0.01969,-0.04133,0.0,1.24,-4.7,104.21,0.00073,0.0027,-0.99792
29.039417028427124,0.01971,-0.04123,0.0,1.7,-4.47,110.7,0.00318,0.02685,-1.00153
29.23946189880371,0.01752,-0.04193,0.0,2.03,-4.25,115.95,-0.01575,0.02803,-0.99839
29.44157600402832,0.01798,-0.0409,0.0,2.47,-3.97,122.56,-0.00881,0.0222,-1.01057
29.639506816864014,0.01816,-0.04237,0.0,2.78,-3.71,127.77,-0.03789,-0.0046,-0.99992
29.839621782302856,0.01969,-0.04031,0.0,3.12,-3.4,133.74,0.00183,0.02178,-1.01104
30.039408922195435,0.01761,-0.04333,0.0,3.39,-3.04,139.69,-0.00434,0.0655,-1.00449
30.239466905593872,0.01935,-0.04027,0.0,3.63,-2.61,146.15,0.00884,0.01656,-1.00341
30.439307928085327,0.01733,-0.04352,0.0,3.85,-2.22,152.02,-0.0112,0.04547,-0.99305
30.639482975006104,0.0149,-0.045,0.0,4.0,-1.83,157.27,0.01806,0.05321,-1.00088
30.839442014694214,0.01444,-0.04456,0.0,3.99,-1.83,157.26,-0.01235,0.01801,-0.99982
31.038520097732544,0.01481,-0.04405,0.0,4.0,-1.83,157.25,-0.01168,0.01953,-1.00072
31.239567756652832,0.01529,-0.04341,0.0,4.01,-1.83,157.25,-0.00788,0.01953,-1.00155
31.43941617012024,0.01574,-0.04293,0.0,4.0,-1.83,157.25,-0.00993,0.01926,-0.99968
31.66055703163147,0.01615,-0.04253,0.0,4.01,-1.83,157.25,-0.00978,0.0183,-0.99976
31.86126685142517,0.01647,-0.04236,0.0,4.01,-1.83,157.25,-0.00947,0.01818,-1.00116
